Frequency[Hz]	Experimental
81.250	0.24965
82.812	0.26412
84.375	0.28639
85.937	0.29087
87.500	0.28303
89.062	0.29861
90.625	0.30591
92.187	0.31027
93.750	0.30784
95.312	0.33008
96.875	0.33957
98.437	0.34634
100.00	0.35466
101.56	0.35820
103.13	0.36457
104.69	0.36870
106.25	0.37572
107.81	0.38279
109.38	0.38616
110.94	0.39832
112.50	0.40280
114.06	0.40894
115.63	0.40878
117.19	0.41416
118.75	0.42649
120.31	0.42723
121.88	0.43026
123.44	0.43712
125.00	0.43770
126.56	0.44279
128.13	0.44706
129.69	0.45365
131.25	0.45582
132.81	0.45663
134.38	0.46037
135.94	0.45946
137.50	0.46157
139.06	0.46865
140.63	0.46992
142.19	0.48121
143.75	0.47720
145.31	0.48208
146.88	0.49087
148.44	0.49736
150.00	0.50349
151.56	0.50356
153.13	0.51081
154.69	0.52130
156.25	0.52323
157.81	0.52426
159.38	0.52047
160.94	0.52514
162.50	0.52909
164.06	0.53478
165.63	0.53746
167.19	0.53403
168.75	0.54254
170.31	0.53986
171.88	0.54022
173.44	0.54521
175.00	0.54576
176.56	0.54789
178.13	0.54958
179.69	0.55484
181.25	0.55756
182.81	0.55789
184.38	0.56979
185.94	0.56950
187.50	0.57223
189.06	0.57645
190.63	0.57922
192.19	0.58252
193.75	0.58082
195.31	0.58039
196.88	0.58439
198.44	0.58230
200.00	0.58609
201.56	0.58566
203.12	0.58812
204.69	0.58709
206.25	0.58950
207.81	0.59144
209.37	0.59364
210.94	0.59562
212.50	0.59721
214.06	0.59998
215.62	0.59776
217.19	0.60191
218.75	0.60251
220.31	0.60427
221.87	0.60613
223.44	0.60986
225.00	0.61026
226.56	0.61107
228.12	0.61383
229.69	0.61635
231.25	0.61715
232.81	0.61883
234.37	0.61913
235.94	0.62102
237.50	0.62118
239.06	0.62257
240.62	0.62462
242.19	0.62355
243.75	0.62707
245.31	0.62625
246.87	0.62509
248.44	0.62700
250.00	0.62582
251.56	0.62784
253.12	0.62749
254.69	0.62850
256.25	0.62520
257.81	0.62927
259.37	0.62697
260.94	0.63012
262.50	0.63237
264.06	0.62936
265.62	0.63008
267.19	0.63154
268.75	0.62968
270.31	0.63017
271.87	0.63197
273.44	0.63250
275.00	0.63246
276.56	0.63211
278.12	0.62868
279.69	0.63039
281.25	0.63130
282.81	0.63240
284.37	0.63083
285.94	0.63219
287.50	0.63321
289.06	0.63232
290.62	0.63192
292.19	0.63138
293.75	0.63135
295.31	0.63162
296.87	0.62951
298.44	0.63338
300.00	0.63141
301.56	0.63125
303.12	0.63100
304.69	0.62975
306.25	0.63143
307.81	0.63046
309.37	0.62717
310.94	0.62816
312.50	0.62893
314.06	0.62882
315.62	0.62965
317.19	0.62793
318.75	0.62899
320.31	0.62980
321.87	0.62414
323.44	0.62841
325.00	0.63007
326.56	0.63140
328.12	0.63130
329.69	0.63004
331.25	0.63386
332.81	0.63642
334.37	0.63907
335.94	0.63526
337.50	0.63802
339.06	0.63621
340.62	0.63336
342.19	0.63290
343.75	0.62988
345.31	0.62977
346.87	0.62723
348.44	0.62969
350.00	0.62577
351.56	0.62616
353.12	0.62234
354.69	0.61998
356.25	0.61969
357.81	0.62243
359.37	0.61807
360.94	0.61990
362.50	0.61759
364.06	0.61790
365.62	0.61901
367.19	0.61802
368.75	0.61744
370.31	0.61816
371.87	0.61731
373.44	0.61580
375.00	0.61687
376.56	0.61551
378.12	0.61680
379.69	0.61853
381.25	0.61589
382.81	0.61515
384.37	0.61576
385.94	0.61269
387.50	0.61471
389.06	0.61327
390.62	0.61410
392.19	0.61393
393.75	0.61414
395.31	0.61458
396.87	0.61412
398.44	0.61242
400.00	0.61142
401.56	0.61025
403.12	0.61216
404.69	0.61133
406.25	0.60987
407.81	0.60908
409.37	0.60913
410.94	0.60984
412.50	0.60820
414.06	0.60832
415.62	0.60828
417.19	0.60767
418.75	0.60652
420.31	0.60795
421.87	0.60733
423.44	0.60524
425.00	0.60692
426.56	0.60536
428.12	0.60492
429.69	0.60530
431.25	0.60451
432.81	0.60241
434.37	0.60078
435.94	0.60383
437.50	0.60366
439.06	0.60336
440.62	0.60310
442.19	0.60474
443.75	0.60419
445.31	0.60257
446.87	0.60174
448.44	0.60294
450.00	0.60309
451.56	0.60248
453.12	0.60259
454.69	0.60179
456.25	0.60268
457.81	0.60224
459.37	0.59949
460.94	0.59893
462.50	0.60053
464.06	0.60062
465.62	0.59848
467.19	0.59736
468.75	0.59579
470.31	0.59860
471.87	0.60140
473.44	0.59940
475.00	0.59817
476.56	0.59748
478.12	0.59631
479.69	0.59665
481.25	0.59733
482.81	0.59549
484.37	0.59765
485.94	0.59744
487.50	0.59727
489.06	0.59682
490.62	0.59513
492.19	0.59566
493.75	0.59713
495.31	0.59689
496.87	0.59610
498.44	0.59575
500.00	0.59671
501.56	0.59470
503.12	0.59552
504.69	0.59537
506.25	0.59621
507.81	0.59592
509.37	0.59450
510.94	0.59567
512.50	0.59544
514.06	0.59460
515.62	0.59453
517.19	0.59595
518.75	0.59633
520.31	0.59522
521.87	0.59433
523.44	0.59408
525.00	0.59497
526.56	0.59589
528.12	0.59523
529.69	0.59369
531.25	0.59409
532.81	0.59548
534.37	0.59430
535.94	0.59441
537.50	0.59373
539.06	0.59461
540.62	0.59515
542.19	0.59472
543.75	0.59559
545.31	0.59468
546.87	0.59470
548.44	0.59444
550.00	0.59529
551.56	0.59758
553.12	0.59634
554.69	0.59542
556.25	0.59586
557.81	0.59595
559.37	0.59829
560.94	0.59556
562.50	0.59825
564.06	0.59632
565.62	0.59633
567.19	0.59706
568.75	0.59765
570.31	0.59780
571.87	0.59712
573.44	0.59705
575.00	0.59863
576.56	0.59915
578.12	0.59727
579.69	0.59775
581.25	0.59745
582.81	0.59969
584.37	0.60025
585.94	0.60018
587.50	0.59931
589.06	0.60014
590.62	0.60166
592.19	0.60104
593.75	0.60133
595.31	0.60205
596.87	0.60082
598.44	0.60158
600.00	0.60285
601.56	0.60393
603.12	0.60105
604.69	0.60325
606.25	0.60380
607.81	0.60449
609.37	0.60535
610.94	0.60377
612.50	0.60409
614.06	0.60542
615.62	0.60458
617.19	0.60569
618.75	0.60719
620.31	0.60575
621.87	0.60728
623.44	0.60835
625.00	0.60934
626.56	0.60821
628.12	0.60776
629.69	0.60873
631.25	0.60868
632.81	0.60864
634.37	0.60853
635.94	0.60775
637.50	0.60799
639.06	0.60948
640.62	0.61158
642.19	0.61149
643.75	0.61082
645.31	0.60964
646.87	0.61099
648.44	0.61189
650.00	0.61161
651.56	0.61139
653.12	0.61221
654.69	0.61361
656.25	0.61222
657.81	0.61293
659.37	0.61364
660.94	0.61351
662.50	0.61551
664.06	0.61509
665.62	0.61484
667.19	0.61555
668.75	0.61617
670.31	0.61583
671.87	0.61666
673.44	0.61611
675.00	0.61783
676.56	0.61716
678.12	0.61765
679.69	0.61807
681.25	0.61905
682.81	0.62128
684.37	0.62080
685.94	0.62143
687.50	0.62218
689.06	0.62216
690.62	0.62082
692.19	0.62148
693.75	0.62183
695.31	0.62293
696.87	0.62289
698.44	0.62317
700.00	0.62343
701.56	0.62515
703.12	0.62633
704.69	0.62615
706.25	0.62516
707.81	0.62678
709.37	0.62747
710.94	0.62855
712.50	0.62916
714.06	0.62851
715.62	0.62676
717.19	0.62998
718.75	0.63169
720.31	0.63240
721.87	0.63040
723.44	0.63045
725.00	0.62953
726.56	0.63186
728.12	0.63441
729.69	0.63249
731.25	0.63597
732.81	0.63293
734.37	0.63323
735.94	0.63359
737.50	0.63326
739.06	0.63413
740.62	0.63306
742.19	0.63379
743.75	0.63507
745.31	0.63558
746.87	0.63561
748.44	0.64113
750.00	0.63953
751.56	0.63426
753.12	0.63703
754.69	0.64021
756.25	0.64285
757.81	0.63979
759.37	0.64208
760.94	0.63590
762.50	0.63880
764.06	0.64969
765.62	0.64860
767.19	0.63802
768.75	0.64333
770.31	0.64902
771.87	0.64009
773.44	0.63611
775.00	0.63669
776.56	0.64657
778.12	0.64681
779.69	0.60664
781.25	0.61140
782.81	0.62856
784.37	0.64411
785.94	0.64608
787.50	0.65174
789.06	0.65527
790.62	0.63512
792.19	0.64548
793.75	0.65240
795.31	0.64967
796.87	0.64270
798.44	0.65259
800.00	0.65530
801.56	0.65114
803.12	0.65075
804.69	0.65053
806.25	0.64991
807.81	0.65016
809.37	0.65389
810.94	0.65222
812.50	0.65207
814.06	0.65191
815.62	0.65018
817.19	0.65210
818.75	0.65393
820.31	0.65285
821.87	0.65208
823.44	0.65432
825.00	0.65202
826.56	0.65268
828.12	0.65460
829.69	0.65571
831.25	0.65471
832.81	0.65633
834.37	0.65498
835.94	0.65468
837.50	0.65519
839.06	0.65630
840.62	0.65689
842.19	0.65598
843.75	0.65653
845.31	0.65790
846.87	0.65788
848.44	0.65957
850.00	0.65844
851.56	0.65801
853.12	0.66040
854.69	0.66153
856.25	0.66053
857.81	0.65861
859.37	0.65903
860.94	0.66029
862.50	0.65926
864.06	0.65999
865.62	0.66088
867.19	0.65810
868.75	0.66107
870.31	0.66211
871.87	0.66039
873.44	0.66054
875.00	0.66098
876.56	0.66097
878.12	0.66299
879.69	0.66415
881.25	0.66251
882.81	0.66320
884.37	0.66471
885.94	0.66311
887.50	0.66193
889.06	0.66623
890.62	0.66457
892.19	0.66448
893.75	0.66490
895.31	0.66302
896.87	0.66680
898.44	0.66760
900.00	0.66517
901.56	0.66516
903.12	0.66581
904.69	0.66420
906.25	0.66309
907.81	0.66243
909.37	0.66516
910.94	0.66758
912.50	0.66499
914.06	0.66421
915.62	0.66658
917.19	0.66404
918.75	0.66413
920.31	0.66631
921.87	0.66680
923.44	0.66623
925.00	0.66550
926.56	0.66783
928.12	0.66836
929.69	0.66734
931.25	0.66619
932.81	0.66699
934.37	0.66910
935.94	0.66902
937.50	0.66808
939.06	0.66966
940.62	0.66879
942.19	0.66924
943.75	0.66779
945.31	0.66849
946.87	0.66873
948.44	0.66910
950.00	0.66910
951.56	0.66935
953.12	0.66938
954.69	0.66956
956.25	0.66962
957.81	0.66992
959.37	0.66996
960.94	0.66995
962.50	0.67021
964.06	0.66978
965.62	0.66990
967.19	0.66950
968.75	0.66994
970.31	0.67033
971.87	0.67060
973.44	0.67071
975.00	0.67097
976.56	0.67098
978.12	0.67111
979.69	0.67124
981.25	0.67218
982.81	0.67219
984.37	0.67150
985.94	0.67171
987.50	0.67172
989.06	0.67111
990.62	0.67136
992.19	0.67227
993.75	0.67132
995.31	0.67193
996.87	0.67260
998.44	0.67235
1000.0	0.67288
1001.6	0.67343
1003.1	0.67288
1004.7	0.67221
1006.3	0.67278
1007.8	0.67293
1009.4	0.67255
1010.9	0.67280
1012.5	0.67425
1014.1	0.67346
1015.6	0.67126
1017.2	0.67264
1018.8	0.67345
1020.3	0.67065
1021.9	0.67085
1023.4	0.67201
1025.0	0.67453
1026.6	0.67372
1028.1	0.67237
1029.7	0.67326
1031.3	0.67459
1032.8	0.67476
1034.4	0.67432
1035.9	0.67365
1037.5	0.67067
1039.1	0.67146
1040.6	0.67339
1042.2	0.67411
1043.8	0.67277
1045.3	0.67243
1046.9	0.67007
1048.4	0.67303
1050.0	0.67456
1051.6	0.67492
1053.1	0.67220
1054.7	0.67164
1056.3	0.67480
1057.8	0.67353
1059.4	0.67563
1060.9	0.67497
1062.5	0.67324
1064.1	0.67323
1065.6	0.67176
1067.2	0.67085
1068.8	0.67166
1070.3	0.67316
1071.9	0.67263
1073.4	0.67356
1075.0	0.67461
1076.6	0.67184
1078.1	0.67372
1079.7	0.67297
1081.3	0.67173
1082.8	0.67144
1084.4	0.67319
1085.9	0.67374
1087.5	0.67293
1089.1	0.67308
1090.6	0.67387
1092.2	0.67219
1093.8	0.67250
1095.3	0.67401
1096.9	0.67455
1098.4	0.67296
1100.0	0.67335
1101.6	0.67375
1103.1	0.67304
1104.7	0.67438
1106.3	0.67374
1107.8	0.67331
1109.4	0.67268
1110.9	0.67381
1112.5	0.67522
1114.1	0.67475
1115.6	0.67464
1117.2	0.67358
1118.8	0.67338
1120.3	0.67413
1121.9	0.67405
1123.4	0.67476
1125.0	0.67409
1126.6	0.67384
1128.1	0.67393
1129.7	0.67407
1131.3	0.67357
1132.8	0.67243
1134.4	0.67237
1135.9	0.67258
1137.5	0.67301
1139.1	0.67278
1140.6	0.67143
1142.2	0.67127
1143.8	0.67116
1145.3	0.67123
1146.9	0.67125
1148.4	0.67083
1150.0	0.67052
1151.6	0.67145
1153.1	0.67143
1154.7	0.67101
1156.3	0.67108
1157.8	0.67056
1159.4	0.66991
1160.9	0.66890
1162.5	0.66987
1164.1	0.66875
1165.6	0.66913
1167.2	0.67021
1168.8	0.66975
1170.3	0.66969
1171.9	0.67013
1173.4	0.66899
1175.0	0.67026
1176.6	0.67222
1178.1	0.67239
1179.7	0.67304
1181.3	0.67370
1182.8	0.67479
1184.4	0.67381
1185.9	0.67369
1187.5	0.67481
1189.1	0.67335
1190.6	0.67179
1192.2	0.66973
1193.8	0.67097
1195.3	0.67145
1196.9	0.66942
1198.4	0.67085
1200.0	0.66943
1201.6	0.67165
1203.1	0.67083
1204.7	0.67023
1206.3	0.67091
1207.8	0.66720
1209.4	0.66622
1210.9	0.66827
1212.5	0.66745
1214.1	0.66359
1215.6	0.66504
1217.2	0.66672
1218.8	0.66863
1220.3	0.66675
1221.9	0.66809
1223.4	0.66639
1225.0	0.66962
1226.6	0.67023
1228.1	0.67082
1229.7	0.67271
1231.3	0.67009
1232.8	0.67303
1234.4	0.67221
1235.9	0.67271
1237.5	0.67112
1239.1	0.67064
1240.6	0.67336
1242.2	0.67119
1243.8	0.67088
1245.3	0.67233
1246.9	0.67182
1248.4	0.66864
1250.0	0.66923
1251.6	0.67085
1253.1	0.66968
1254.7	0.66985
1256.3	0.66953
1257.8	0.66723
1259.4	0.66891
1260.9	0.66878
1262.5	0.66859
1264.1	0.67007
1265.6	0.66873
1267.2	0.66886
1268.8	0.67051
1270.3	0.66972
1271.9	0.66927
1273.4	0.67024
1275.0	0.67245
1276.6	0.67216
1278.1	0.67272
1279.7	0.67330
1281.3	0.67274
1282.8	0.67377
1284.4	0.67351
1285.9	0.67433
1287.5	0.67334
1289.1	0.67504
1290.6	0.67499
1292.2	0.67639
1293.8	0.67718
1295.3	0.67802
1296.9	0.67858
1298.4	0.68141
1300.0	0.68044
1301.6	0.68000
1303.1	0.67927
1304.7	0.68073
1306.3	0.67917
1307.8	0.67850
1309.4	0.67790
1310.9	0.67908
1312.5	0.68149
1314.1	0.68106
1315.6	0.68004
1317.2	0.67868
1318.8	0.67478
1320.3	0.66899
1321.9	0.66428
1323.4	0.65832
1325.0	0.65214
1326.6	0.64723
1328.1	0.64722
1329.7	0.64962
1331.3	0.65500
1332.8	0.65290
1334.4	0.65555
1335.9	0.65770
1337.5	0.65596
1339.1	0.65379
1340.6	0.65362
1342.2	0.65241
1343.8	0.65067
1345.3	0.65065
1346.9	0.64994
1348.4	0.64793
1350.0	0.64594
1351.6	0.64596
1353.1	0.65122
1354.7	0.64726
1356.3	0.64664
1357.8	0.65069
1359.4	0.65392
1360.9	0.64861
1362.5	0.64662
1364.1	0.64567
1365.6	0.64734
1367.2	0.64927
1368.8	0.65187
1370.3	0.65184
1371.9	0.65372
1373.4	0.66173
1375.0	0.65812
1376.6	0.65895
1378.1	0.66114
1379.7	0.66897
1381.3	0.66413
1382.8	0.66783
1384.4	0.66454
1385.9	0.66517
1387.5	0.66951
1389.1	0.67045
1390.6	0.65997
1392.2	0.65874
1393.8	0.66548
1395.3	0.66191
1396.9	0.67024
1398.4	0.66937
1400.0	0.68362
1401.6	0.68897
1403.1	0.68663
1404.7	0.70488
1406.3	0.70496
1407.8	0.71072
1409.4	0.71783
1410.9	0.73406
1412.5	0.73457
1414.1	0.73965
1415.6	0.75359
1417.2	0.74972
1418.8	0.73482
1420.3	0.70741
1421.9	0.69061
1423.4	0.67869
1425.0	0.66671
1426.6	0.65233
1428.1	0.63276
1429.7	0.62576
1431.3	0.62485
1432.8	0.62087
1434.4	0.62552
1435.9	0.63141
1437.5	0.63559
1439.1	0.64662
1440.6	0.65259
1442.2	0.65328
1443.8	0.66173
1445.3	0.66687
1446.9	0.66722
1448.4	0.66946
1450.0	0.67463
1451.6	0.67688
1453.1	0.68238
1454.7	0.68690
1456.3	0.68760
1457.8	0.68564
1459.4	0.68848
1460.9	0.68761
1462.5	0.68666
1464.1	0.68835
1465.6	0.68893
1467.2	0.68862
1468.8	0.68616
1470.3	0.68783
1471.9	0.68814
1473.4	0.68924
1475.0	0.68864
1476.6	0.68966
1478.1	0.68929
1479.7	0.68439
1481.3	0.68394
1482.8	0.68694
1484.4	0.68439
1485.9	0.68133
1487.5	0.68232
1489.1	0.68472
1490.6	0.68096
1492.2	0.67674
1493.8	0.67357
1495.3	0.67767
1496.9	0.67328
1498.4	0.67170
1500.0	0.67651
1501.6	0.67275
1503.1	0.67022
1504.7	0.67319
1506.3	0.66718
1507.8	0.66749
1509.4	0.66975
1510.9	0.66861
1512.5	0.66564
1514.1	0.66489
1515.6	0.66793
1517.2	0.66833
1518.8	0.66320
1520.3	0.66553
1521.9	0.65432
1523.4	0.65752
1525.0	0.65889
1526.6	0.65455
1528.1	0.64837
1529.7	0.64730
1531.3	0.64276
1532.8	0.64046
1534.4	0.63849
1535.9	0.64570
1537.5	0.64905
1539.1	0.63501
1540.6	0.63250
1542.2	0.64253
1543.8	0.63862
1545.3	0.64048
1546.9	0.64392
1548.4	0.63944
1550.0	0.64383
1551.6	0.65833
1553.1	0.65496
1554.7	0.65149
1556.3	0.65050
1557.8	0.63326
1559.4	0.62619
1560.9	0.62607
1562.5	0.63753
1564.1	0.64877
1565.6	0.63926
1567.2	0.65366
1568.8	0.65836
1570.3	0.64658
1571.9	0.64908
1573.4	0.65270
1575.0	0.65651
1576.6	0.66354
1578.1	0.66073
1579.7	0.65444
1581.3	0.65494
1582.8	0.66129
1584.4	0.66809
1585.9	0.66646
1587.5	0.66950
1589.1	0.67476
1590.6	0.67473
1592.2	0.67355
1593.8	0.67208
1595.3	0.66719
1596.9	0.67069
1598.4	0.67036
1600.0	0.66957
1601.6	0.67663
1603.1	0.67333
1604.7	0.67524
1606.3	0.67683
1607.8	0.67620
1609.4	0.67577
1610.9	0.67691
1612.5	0.67549
1614.1	0.67727
1615.6	0.67619
1617.2	0.67268
1618.8	0.67195
1620.3	0.67004
1621.9	0.67015
1623.4	0.66946
1625.0	0.66597
1626.6	0.66525
1628.1	0.66566
1629.7	0.66495
1631.3	0.66286
1632.8	0.66234
1634.4	0.66297
1635.9	0.66329
1637.5	0.66271
1639.1	0.66212
1640.6	0.66300
1642.2	0.66233
1643.8	0.66295
1645.3	0.66283
1646.9	0.66327
1648.4	0.66184
1650.0	0.66135
1651.6	0.66395
1653.1	0.66378
1654.7	0.66119
1656.3	0.65864
1657.8	0.65975
1659.4	0.66100
1660.9	0.66449
1662.5	0.66319
1664.1	0.66324
1665.6	0.66207
1667.2	0.66119
1668.8	0.66383
1670.3	0.66357
1671.9	0.66312
1673.4	0.66224
1675.0	0.66265
1676.6	0.66525
1678.1	0.66346
1679.7	0.66267
1681.3	0.66452
1682.8	0.66484
1684.4	0.66443
1685.9	0.66298
1687.5	0.66380
1689.1	0.66488
1690.6	0.66582
1692.2	0.66680
1693.8	0.66588
1695.3	0.66429
1696.9	0.66862
1698.4	0.66928
1700.0	0.67226
1701.6	0.66793
1703.1	0.66691
1704.7	0.66606
1706.3	0.66806
1707.8	0.66992
1709.4	0.66957
1710.9	0.66657
1712.5	0.66985
1714.1	0.66906
1715.6	0.66819
1717.2	0.66493
1718.8	0.66410
1720.3	0.66573
1721.9	0.66824
1723.4	0.66758
1725.0	0.66517
1726.6	0.66455
1728.1	0.66568
1729.7	0.66739
1731.3	0.66786
1732.8	0.66891
1734.4	0.66861
1735.9	0.66659
1737.5	0.66967
1739.1	0.66882
1740.6	0.66877
1742.2	0.66825
1743.8	0.67068
1745.3	0.67029
1746.9	0.66674
1748.4	0.66582
1750.0	0.66656
1751.6	0.66593
1753.1	0.66601
1754.7	0.66744
1756.3	0.66806
1757.8	0.66605
1759.4	0.66495
1760.9	0.66474
1762.5	0.66460
1764.1	0.66565
1765.6	0.66501
1767.2	0.66553
1768.8	0.66660
1770.3	0.66466
1771.9	0.66439
1773.4	0.66572
1775.0	0.66546
1776.6	0.66487
1778.1	0.66444
1779.7	0.66465
1781.3	0.66456
1782.8	0.66518
1784.4	0.66511
1785.9	0.66556
1787.5	0.66529
1789.1	0.66498
1790.6	0.66492
1792.2	0.66519
1793.8	0.66518
1795.3	0.66529
1796.9	0.66554
1798.4	0.66572
1800.0	0.66480
1801.6	0.66519
1803.1	0.66568
1804.7	0.66621
1806.3	0.66631
1807.8	0.66647
1809.4	0.66661
1810.9	0.66668
1812.5	0.66705
1814.1	0.66654
1815.6	0.66697
1817.2	0.66811
1818.8	0.66835
1820.3	0.66735
1821.9	0.66812
1823.4	0.66890
1825.0	0.66803
1826.6	0.66872
1828.1	0.67007
1829.7	0.67013
1831.3	0.67066
1832.8	0.67094
1834.4	0.67027
1835.9	0.67176
1837.5	0.67086
1839.1	0.66781
1840.6	0.66872
1842.2	0.66741
1843.8	0.66637
1845.3	0.66584
1846.9	0.66634
1848.4	0.66624
1850.0	0.66463
1851.6	0.66407
1853.1	0.66415
1854.7	0.66495
1856.3	0.66639
1857.8	0.66588
1859.4	0.66588
1860.9	0.66514
1862.5	0.66756
1864.1	0.66731
1865.6	0.66633
1867.2	0.66648
1868.8	0.66598
1870.3	0.66731
1871.9	0.66791
1873.4	0.66739
1875.0	0.66655
1876.6	0.66642
1878.1	0.66666
1879.7	0.66673
1881.3	0.66812
1882.8	0.66966
1884.4	0.66938
1885.9	0.66806
1887.5	0.66773
1889.1	0.66833
1890.6	0.66760
1892.2	0.66849
1893.8	0.66830
1895.3	0.67027
1896.9	0.67045
1898.4	0.67020
1900.0	0.67128
1901.6	0.67113
1903.1	0.67209
1904.7	0.67168
1906.3	0.67211
1907.8	0.67159
1909.4	0.66956
1910.9	0.66911
1912.5	0.66942
1914.1	0.66970
1915.6	0.66934
1917.2	0.66805
1918.8	0.66787
1920.3	0.66783
1921.9	0.66803
1923.4	0.66880
1925.0	0.66834
1926.6	0.66772
1928.1	0.66892
1929.7	0.66969
1931.3	0.66991
1932.8	0.67025
1934.4	0.67102
1935.9	0.67172
1937.5	0.67167
1939.1	0.67181
1940.6	0.67173
1942.2	0.67216
1943.8	0.67206
1945.3	0.67196
1946.9	0.67234
1948.4	0.67233
1950.0	0.67273
1951.6	0.67288
1953.1	0.67340
1954.7	0.67404
1956.3	0.67390
1957.8	0.67407
1959.4	0.67479
1960.9	0.67462
1962.5	0.67517
1964.1	0.67630
1965.6	0.67682
1967.2	0.67719
1968.8	0.67681
1970.3	0.67750
1971.9	0.67781
1973.4	0.67709
1975.0	0.67563
1976.6	0.67419
1978.1	0.67271
1979.7	0.67190
1981.3	0.67120
1982.8	0.67143
1984.4	0.67331
1985.9	0.67457
1987.5	0.67517
1989.1	0.67535
1990.6	0.67539
1992.2	0.67509
1993.8	0.67575
1995.3	0.67480
1996.9	0.67335
1998.4	0.67392
2000.0	0.67277
